File: development/datasets/trainingDataset/TGA.txt
7.58,712561,18.46,7.32789,0.999636,-0.316402,1068.59,154684992,1039.38,954.097,1.01027,0.049233,734.16,708367552,714.83,669.598,1.00798,0.0493738,1962.87,1949.44,1876.26,1.00393
7.53,222380,18.46,7.31639,0.999877,-0.36324,1047.84,87363000,1068.59,969.615,1.00794,0.0626539,730.37,708367552,734.16,678.946,1.00692,0.0540388,1985.44,1962.87,1891.28,1.00432
6.64,550072,18.46,7.22684,0.992877,-0.388643,1025.62,135447008,1068.59,980.675,1.00562,0.00399304,721.91,708367552,734.16,686.26,1.00543,0.0435111,1978.22,1985.44,1904.74,1.00362
6.12,870641,18.46,7.10224,0.989125,-0.389462,993.3,134746000,1068.59,989.228,1.0028,-0.0013943,697.87,708367552,734.16,691.976,1.00262,0.0366137,1925.15,1985.44,1914.08,1.00147
6.39,1098311,18.46,6.99172,0.992481,-0.368312,998.26,119387000,1068.59,995.126,1.00256,0.0173564,700.15,708367552,734.16,695.731,1.00245,0.0399748,1955.06,1985.44,1921.45,1.00227
6.78,642730,18.46,6.93123,0.997077,-0.268062,1037.82,90548000,1068.59,1002.65,1.00449,0.0652085,715.72,708367552,734.16,699.931,1.00342,0.0486123,2003.37,1988.4,1934.47,1.00352
6.29,846341,18.46,6.84944,0.992747,-0.238505,977.54,117842000,1068.59,1005.24,0.999873,0.0412324,678.33,708367552,734.16,700.925,0.999358,0.00177438,1985.54,2007.71,1945.76,1.00242
5.93,750291,18.46,6.72903,0.989833,-0.258789,958.49,139250000,1068.59,1003.61,0.998222,0.0228237,671.95,708367552,734.16,699.693,0.998444,-0.0137445,1982.85,2010.4,1955.6,1.00197
5.08,1318801,18.46,6.52191,0.982467,-0.26281,847.0,202256992,1068.59,989.425,0.990857,-0.132457,613.73,708367552,734.16,691.942,0.992923,-0.05955,1906.13,2010.4,1956.64,0.999199
4.77,1014360,18.46,6.27034,0.980285,-0.295712,860.92,174448992,1068.59,971.562,0.991871,-0.183846,628.23,708367552,734.16,682.704,0.994322,-0.0954822,1964.58,2010.4,1955.7,1.00103
4.31,1161638,18.46,5.97908,0.976609,-0.353718,893.4,208486000,1068.59,959.575,0.994191,-0.177288,642.8,708367552,734.16,676.836,0.995783,-0.128338,2031.92,2018.05,1966.75,1.00296
4.03,1020833,18.46,5.67198,0.974704,-0.407774,903.48,176903008,1068.59,947.857,0.99511,-0.20126,645.6,708367552,734.16,670.582,0.996187,-0.160229,2063.5,2039.82,1979.6,1.00355
3.33,1919098,18.46,5.30787,0.96816,-0.301776,786.85,286137984,1068.59,924.452,0.987584,-0.296697,591.53,708367552,734.16,658.397,0.991328,-0.241707,2075.37,2067.56,1993.37,1.00349
3.7,1872641,18.46,4.97411,0.973394,-0.260544,802.24,365367008,1068.59,899.222,0.989357,-0.301883,596.85,708367552,734.16,644.846,0.992429,-0.220608,2070.65,2075.37,2001.11,1.00298
4.08,1685686,18.46,4.73308,0.979754,-0.208074,788.01,136122000,1068.59,879.514,0.989031,-0.333879,589.12,708367552,734.16,634.875,0.992172,-0.217937,2058.2,2088.77,2012.27,1.0022
3.03,3414503,18.46,4.43985,0.967219,-0.290744,737.84,274444000,1068.59,855.931,0.986309,-0.494113,559.36,708367552,734.16,622.376,0.989872,-0.266905,2019.42,2088.77,2017.04,1.00072
2.91,1261155,18.46,4.15082,0.967673,-0.34255,763.88,233690000,1068.59,837.393,0.98951,-0.444501,557.95,708367552,734.16,611.219,0.990696,-0.240882,1994.99,2088.77,2020.01,0.999779
3.3,1477181,18.46,3.94458,0.976345,-0.3208,838.74,214096000,1068.59,829.405,0.996406,-0.314449,603.4,708367552,734.16,605.627,0.996447,-0.224201,2096.99,2088.77,2029.37,1.00293
2.92,1299054,18.46,3.73368,0.972622,-0.341782,813.42,247324000,1068.59,822.328,0.995427,-0.313314,577.51,708367552,734.16,599.521,0.994564,-0.265629,2104.5,2110.3,2041.76,1.00288
2.83,1292093,18.46,3.54323,0.973419,-0.324846,766.39,216976000,1068.59,811.299,0.992715,-0.321094,544.87,708367552,734.16,590.6,0.991911,-0.272081,2053.4,2110.3,2046.99,1.00092
3.55,2030208,18.46,3.45187,0.989733,-0.242478,795.05,226718000,1068.59,804.763,0.996101,-0.330917,559.23,708367552,734.16,584.054,0.994461,-0.247423,2061.02,2110.3,2054.11,1.00093
4.09,1380362,18.46,3.448,1.00352,-0.210534,841.44,210512000,1068.59,804.151,1.001,-0.267361,585.36,708367552,734.16,580.753,0.99839,-0.195741,2102.06,2110.3,2060.58,1.00209
4.43,1610725,18.46,3.52004,1.01236,-0.146951,856.89,186506000,1068.59,808.728,1.00293,-0.248369,597.98,708367552,734.16,581.084,1.00046,-0.178086,2117.69,2110.3,2068.2,1.00238
4.24,1711123,18.46,3.61568,1.01003,-0.165886,847.45,251140000,1068.59,814.051,1.00254,-0.0965978,597.81,708367552,734.16,582.447,1.00086,-0.136095,2116.1,2117.69,2076.44,1.00204
4.12,1048939,18.46,3.67905,1.00863,-0.0956606,825.96,180632992,1068.59,815.471,1.00085,-0.0821546,583.44,708367552,734.16,581.995,0.999399,-0.153491,2126.06,2122.73,2084.53,1.00187
4.08,885471,18.46,3.7371,1.00836,0.0534748,797.95,180728992,1068.59,814.023,0.998928,-0.0894856,565.88,708367552,734.16,579.729,0.997872,-0.149641,2092.83,2126.06,2088.1,1.00058
3.81,754969,18.46,3.77486,1.00373,0.07399,787.31,217439008,1068.59,812.041,0.998529,-0.113359,558.01,708367552,734.16,576.888,0.997528,-0.158202,2109.99,2126.06,2091.34,1.00099
3.91,666053,18.46,3.82286,1.00507,0.19841,767.78,213511008,1068.59,808.791,0.997293,0.0217813,546.28,708367552,734.16,573.663,0.996631,-0.0771759,2076.78,2126.06,2092.53,0.999886
3.2,941563,18.46,3.7928,0.992309,-0.0552463,738.15,245083008,1068.59,801.472,0.994866,-0.042018,531.86,708367552,734.16,568.543,0.995169,-0.135928,2126.64,2126.06,2095.1,1.00135
2.96,818193,18.46,3.70133,0.988649,-0.155641,694.34,286611008,1068.59,787.94,0.991679,-0.082703,508.05,708367552,734.16,560.549,0.992953,-0.159787,2103.84,2126.64,2096,1.00059
2.95,821787,18.46,3.61559,0.989099,0.0234727,701.04,269743008,1068.59,774.467,0.992547,0.0146585,506.05,708367552,734.16,551.837,0.993222,-0.131019,2091.54,2126.64,2095.74,1.00013
3.28,1129838,18.46,3.53991,0.994959,0.272733,652.67,380388000,1068.59,756.075,0.988763,-0.0381302,479.16,708367552,734.16,540.204,0.990541,-0.138146,1988.87,2126.64,2081.76,0.996972
2.67,719140,18.46,3.43047,0.98361,0.0500834,636.61,235607008,1068.59,737.787,0.987935,-0.118393,460.95,708367552,734.16,528.351,0.988961,-0.171253,1961.05,2126.64,2063.27,0.996226
2.63,537694,18.46,3.31581,0.982934,0.136492,621.61,223007008,1068.59,720.051,0.987477,-0.150791,456.85,708367552,734.16,517.271,0.989322,-0.126651,1931.34,2126.64,2046.43,0.995567
3.02,820606,18.46,3.23783,0.990409,0.142582,708.57,317403008,1068.59,710.248,0.99606,-0.0517976,506.18,708367552,734.16,510.83,0.996206,-0.0522535,2014.89,2126.64,2035.89,0.998483
2.65,555888,18.46,3.13305,0.982964,-0.112851,683.21,214306000,1068.59,703.376,0.994168,-0.123681,504.85,708367552,734.16,507.378,0.996399,-0.104097,2075.15,2126.64,2035.1,1.00051
2.72,656975,18.46,3.03957,0.985209,-0.183116,713.67,257014000,1068.59,698.042,0.997647,-0.119013,514.21,708367552,734.16,504.513,0.998078,-0.120189,2099.2,2126.64,2038.91,1.00124
2.0,2035119,18.46,2.8768,0.971432,-0.345041,682.52,219536000,1068.59,691.277,0.995695,-0.188077,489.86,708367552,734.16,499.571,0.995728,-0.167341,2089.17,2126.64,2038.55,1.00099
2.02,1435334,17.18,2.72439,0.974118,-0.296551,655.05,262622000,1068.59,685.092,0.994191,-0.231377,473.94,708367552,734.16,495.373,0.994569,-0.195671,2091.69,2126.64,2042.97,1.00112
1.68,1168356,16.21,2.54935,0.96803,-0.282993,570.54,385540000,1068.59,669.437,0.987382,-0.314869,438.48,708367552,734.16,486.532,0.991007,-0.191775,2005.55,2126.64,2037.2,0.998536
1.8,419624,15.58,2.41174,0.973202,-0.293356,586.12,161459008,1068.59,656.988,0.990104,-0.331903,448.44,708367552,734.16,480.513,0.993347,-0.184174,2043.94,2126.64,2037.9,0.999926
1.28,1080614,15.22,2.2511,0.961512,-0.29763,498.83,376960000,1068.59,636.572,0.98273,-0.355316,409.2,708367552,734.16,470.379,0.989087,-0.157836,1880.33,2126.64,2019.76,0.99496
1.44,836603,15.22,2.09426,0.968417,-0.338804,542.89,379379008,1068.59,620.015,0.988606,-0.316548,434.67,708367552,734.16,463.089,0.993723,-0.138563,1940.24,2126.64,2006.28,0.997289
1.23,591219,15.18,1.94695,0.964615,-0.263434,478.18,414704992,1068.59,599.927,0.983149,-0.278698,416.7,708367552,734.16,455.874,0.992186,-0.0933899,1864.78,2126.64,1987.63,0.99519
1.44,576450,15.18,1.83903,0.973321,-0.230093,497.55,436964992,1068.59,582.384,0.986418,-0.259076,428.49,708367552,734.16,450.778,0.994698,-0.0825485,1948.05,2126.64,1978.69,0.998324
1.72,1138661,15.18,1.77961,0.985342,-0.233964,572.76,464326016,1068.59,576.244,0.995691,-0.194385,461.9,708367552,734.16,450.151,1.00001,-0.054087,2022.19,2126.64,1981.01,1.00099
1.67,365635,15.18,1.7289,0.985776,-0.368142,572.58,238036992,1068.59,573.152,0.996296,-0.202466,461.84,708367552,734.16,451.06,1.00016,-0.0598133,2035.94,2126.64,1987.72,1.00143
1.75,474936,14.38,1.69469,0.991794,-0.26562,586.35,329000992,1068.59,569.789,0.998402,-0.222163,466.03,708367552,734.16,451.187,1.00088,-0.0331138,2047.6,2126.64,1995.98,1.00158
1.92,553265,14.38,1.68413,1.0005,-0.307252,644.79,340800992,1068.59,572.899,1.00534,-0.0609569,499.96,708367552,734.16,454.714,1.00563,0.0113953,2091.58,2126.64,2006.63,1.00277
1.94,546384,14.15,1.69327,1.00325,-0.206579,601.55,431600992,1068.59,575.981,1.00038,-0.234858,487.59,708367552,734.16,458.912,1.00347,-0.057695,2057.14,2126.64,2012.86,1.00136
1.75,519482,14.15,1.69708,0.998406,-0.242947,617.16,271646016,1068.59,578.302,1.00291,-0.107373,492.5,708367552,734.16,462.375,1.00433,-0.0134611,2052.32,2126.64,2017.12,1.00114
1.72,440473,13.66,1.69318,0.999683,-0.241118,623.37,230346000,1068.59,583.047,1.00404,-0.192471,494.31,708367552,734.16,466.986,1.00461,-0.0386668,2099.13,2126.64,2027.82,1.00263
1.65,463595,13.66,1.69535,0.998809,-0.0811273,618.45,324232992,1068.59,587.943,1.00399,-0.147869,500.82,708367552,734.16,472.184,1.00547,0.0309657,2071.22,2126.64,2036.31,1.00166
1.87,295983,13.66,1.71772,1.00781,-0.0436338,634.99,332007008,1068.59,593.98,1.00627,-0.133774,514.79,708367552,734.16,477.974,1.00726,0.0808091,2102.95,2126.64,2043.11,1.00273
1.77,214139,13.66,1.7306,1.00405,-0.0449668,626.76,252688992,1068.59,599.723,1.00533,-0.0305791,519.62,708367552,734.16,484.484,1.00733,0.107169,2161.74,2129.9,2059.47,1.00443
1.63,174813,13.66,1.73148,0.998821,-0.148034,617.53,305742016,1068.59,604.363,1.00405,-0.0642738,502.23,708367552,734.16,489.511,1.00434,0.0565129,2173.6,2175.03,2078.35,1.00448
1.92,764234,13.66,1.74441,1.00995,0.211385,642.8,275374016,1068.59,611.298,1.00626,0.128071,508.16,708367552,734.16,493.688,1.00448,0.0803129,2184.05,2182.87,2097.04,1.00436
1.83,533686,13.66,1.77432,1.0047,0.0652116,654.52,233786000,1068.59,620,1.00639,0.0881174,511.22,708367552,734.16,498.286,1.00396,0.0581871,2169.04,2184.05,2112.36,1.00327
2.16,367953,13.66,1.81363,1.0153,0.371598,662.04,238222000,1068.59,627.289,1.00617,0.209277,511.68,708367552,734.16,501.545,1.00328,0.0868823,2127.81,2184.05,2122.55,1.00146
1.89,564982,13.66,1.83086,1.00369,0.0204489,642.86,285303008,1068.59,631.371,1.00296,0.150215,497.27,708367552,734.16,502.379,1.00071,0.0493085,2164.69,2184.05,2130.23,1.00208
2.04,343776,13.66,1.85656,1.00802,0.00401564,677.02,270831008,1068.59,638.573,1.00552,0.179924,520.28,708367552,734.16,505.628,1.00307,0.0613378,2153.74,2184.05,2137.31,1.00135
2.025,245815,13.66,1.88862,1.00649,0.0505189,665.37,277462016,1068.59,643.333,1.00371,0.151564,516.84,708367552,734.16,507.779,1.0022,0.0674076,2141.16,2184.05,2140.2,1.00076
1.8,235719,13.66,1.88467,0.998183,-0.0431264,628.39,313419008,1068.59,644.112,0.999394,0.140149,499.68,708367552,734.16,508.154,0.99955,0.0538525,2085.18,2184.05,2138.3,0.998909
1.81,211725,13.66,1.8769,0.998438,-0.0936756,668.25,267764992,1068.59,646.942,1.00308,0.0989324,521.02,708367552,734.16,509.595,1.00196,-0.0010593,2181.9,2184.05,2144.64,1.0017
1.89,854742,13.66,1.8757,1.00149,-0.224975,721.38,389907008,1068.59,655.51,1.00809,0.286889,546.74,708367552,734.16,513.848,1.00498,0.0557782,2191.95,2213.35,2153.9,1.00176
1.73,907799,13.66,1.86249,0.996221,-0.199532,733.25,1452844032,1068.59,667.476,1.00826,0.204318,563.18,708367552,734.16,520.363,1.00643,0.0432603,2258.07,2259.53,2169.05,1.00338
1.69,291417,13.66,1.84271,0.994851,-0.168604,717.6,571440000,1068.59,676.636,1.00592,0.181788,554.5,708367552,734.16,525.906,1.00473,0.0552143,2238.83,2263.79,2181.53,1.00242
1.78,372269,13.66,1.83658,0.997961,-0.0753555,713.78,951660032,1068.59,684.387,1.00486,0.194511,546.96,708367552,734.16,530.191,1.00329,-0.00608374,2274.64,2276.98,2195.83,1.00314
1.75,540385,13.66,1.82415,0.996821,-0.190709,715.34,908339968,1068.59,690.608,1.00435,0.209734,544.42,708367552,734.16,533.23,1.00258,-0.0336192,2294.69,2276.98,2209.29,1.00328
1.79,863788,13.66,1.81374,0.998396,-0.117282,707.35,1023689984,1068.59,695.064,1.00304,0.207995,534.42,708367552,734.16,534.722,1.00112,-0.0429231,2316.1,2297.42,2224.13,1.00354
1.65,548485,13.66,1.79551,0.993331,-0.0733129,670.38,1050990016,1068.59,695.189,0.999114,0.154385,516.53,708367552,734.16,533.961,0.998858,-0.0606602,2367.34,2351.16,2244.34,1.00467
1.64,545109,13.66,1.76867,0.992811,-0.158917,651.21,1169880064,1068.59,692.642,0.99703,0.102501,510.15,708367552,734.16,532.7,0.997939,-0.0824144,2372.6,2383.12,2265.31,1.0044
1.5,465093,13.66,1.73353,0.988394,-0.156127,638.68,901640000,1068.59,688.205,0.995828,0.0195454,502.92,708367552,734.16,530.146,0.997071,-0.0968889,2343.98,2383.12,2282.46,1.00319
1.58,337899,13.66,1.704,0.991994,-0.281947,670.93,1216729984,1068.59,686.662,0.998817,0.0191919,517.13,708367552,734.16,528.688,0.998801,-0.0963743,2355.54,2383.12,2297.78,1.00316
1.53,290216,13.66,1.67589,0.991154,-0.193401,644.74,983110016,1068.59,682.528,0.996267,0.0279538,498.53,708367552,734.16,525.669,0.996448,-0.0824668,2348.69,2383.12,2308.71,1.00256
1.4,317971,12.09,1.63572,0.987042,-0.24903,633.22,1297379968,1068.59,676.531,0.995247,-0.0942338,495.45,708367552,734.16,521.791,0.996127,-0.161735,2399.29,2384.2,2324.8,1.00358
1.595,310752,11.97,1.6156,0.996207,-0.179537,643.54,1041489984,1068.59,671.572,0.9964,-0.0442253,498.15,708367552,734.16,518.173,0.996605,-0.148517,2381.73,2399.29,2338.12,1.00261
1.44,376517,11.97,1.58913,0.990975,-0.155537,600.45,1095570048,1068.59,662.651,0.992365,-0.127428,476.67,708367552,734.16,512.699,0.994066,-0.215766,2439.07,2415.82,2354.53,1.00368
1.28,635178,11.97,1.54777,0.98527,-0.192466,601.19,1288530048,1068.59,653.227,0.992549,-0.206412,488.95,708367552,734.16,508.156,0.995756,-0.176704,2433.15,2439.07,2368.87,1.00293
1.34,112062,11.97,1.51124,0.9888,-0.126252,602.53,1204780032,1068.59,643.212,0.99312,-0.255279,477.91,708367552,734.16,502.464,0.994686,-0.231487,2423.41,2439.07,2380.86,1.00222
1.32,157602,11.97,1.47584,0.989118,-0.0619925,604.93,949129984,1068.59,634.363,0.994187,-0.229162,481.78,708367552,734.16,497.443,0.995796,-0.233639,2459.27,2439.07,2392.48,1.00282
1.38,179427,11.97,1.45227,0.992621,-0.0479804,620.4,1228710016,1068.59,628.695,0.996579,-0.19459,488.44,708367552,734.16,494.048,0.997337,-0.223327,2472.1,2472.54,2406.32,1.00278
1.19,315983,11.97,1.41442,0.985186,-0.146488,581.75,1120950016,1068.59,621.312,0.993335,-0.223354,469.55,708367552,734.16,490.313,0.99546,-0.214805,2441.32,2476.83,2416.57,1.00156
1.26,274384,11.97,1.38012,0.989744,-0.0752163,568.85,807870016,1068.59,611.747,0.992881,-0.271141,461.78,708367552,734.16,485.062,0.995124,-0.216448,2443.05,2476.83,2422.14,1.00132
1.25,128488,11.97,1.35584,0.990526,-0.118005,577.43,826019968,1068.59,605.259,0.994666,-0.242078,471.43,708367552,734.16,481.674,0.99706,-0.180614,2461.43,2476.83,2430.83,1.00151
1.26,726362,11.97,1.3227,0.992705,-0.177203,630.72,930369984,1068.59,604.898,1.00107,-0.0623421,497.41,708367552,734.16,481.911,1.00097,-0.0939916,2502.22,2500.23,2442.35,1.00232
1.51,371200,11.97,1.33275,1.00577,-0.0666763,643.01,917740032,1068.59,608.213,1.00261,-0.070011,503.79,708367552,734.16,483.978,1.00198,-0.0869548,2549.33,2519.36,2456.95,1.00332
1.58,263997,11.97,1.35892,1.00924,0.0504837,640.5,754369984,1068.59,611.189,1.00243,-0.0393908,502.26,708367552,734.16,485.884,1.00183,-0.0999608,2575.21,2553.17,2473.97,1.00366
1.48,1080014,11.45,1.37822,1.00418,-0.0692977,674.96,1226189952,1068.59,616.623,1.00613,-0.0211991,508.14,708367552,734.16,487.893,1.00267,-0.116003,2587.84,2581.07,2491.77,1.00358
1.48,224519,11.1,1.39155,1.0044,-0.0595433,662.06,889329984,1068.59,623.914,1.00461,-0.00958852,496.33,708367552,734.16,490.119,1.00112,-0.102408,2578.85,2587.84,2507.05,1.0029
1.45,318816,9.49,1.40323,1.00299,-0.0357459,678.47,921910016,1068.59,630.664,1.00612,0.0183154,513.33,708367552,734.16,492.553,1.00336,-0.0651624,2642.22,2602.42,2525.71,1.00413
1.32,311593,9.46,1.39623,0.997159,-0.206771,665.65,1076160000,1068.59,636.814,1.00449,-0.0178419,509.24,708367552,734.16,495.252,1.00267,-0.101211,2675.81,2651.5,2547.63,1.00452
1.439,412831,9.28,1.39874,1.00331,-0.19275,715.77,544150016,1068.59,648.396,1.00909,0.165932,533.41,708367552,734.16,500.797,1.00554,0.0228745,2673.61,2683.34,2569.07,1.00395
1.47,802245,9.28,1.40989,1.00461,-0.123523,764.69,1013350016,1068.59,664.046,1.01291,0.310466,572.02,708367552,734.16,509.769,1.00987,0.0247783,2786.24,2743.15,2599.38,1.00627
1.49,292500,9.28,1.42359,1.00494,-0.161258,767.14,994680000,1068.59,679.384,1.01179,0.272947,573.24,708367552,734.16,518.784,1.00912,0.0140068,2872.87,2810.3,2636.62,1.00774
1.2699,582184,9.28,1.41943,0.994499,-0.116377,652.37,1509660032,1068.59,683.346,0.999838,0.142418,491.04,708367552,734.16,519.933,0.998159,-0.0459534,2619.55,2872.87,2650.95,1.00083
1.32,185220,9.28,1.41049,0.996873,-0.159903,692.63,1134829952,1068.59,687.394,1.00323,0.176232,505.59,708367552,734.16,519.48,0.999835,-0.0762106,2747.3,2872.87,2669.62,1.00359
1.29,389335,9.28,1.39552,0.9956,-0.104553,691.46,972040000,1068.59,690.055,1.00265,0.219819,502.18,708367552,734.16,518.111,0.999305,-0.0719273,2786.57,2872.87,2685.97,1.00412
1.45,177115,9.28,1.39535,1.00262,-0.0716727,695.4,972579968,1068.59,692.772,1.00228,0.30108,493.31,708367552,734.16,516.315,0.997892,0.00884127,2588.26,2872.87,2690.81,0.998806
1.29,403647,9.28,1.38429,0.994826,-0.169237,693.63,998889984,1068.59,695.498,1.00134,0.267672,497.8,708367552,734.16,514.538,0.998177,-0.00217637,2604.47,2872.87,2687.84,0.998946
1.609,524962,9.28,1.39419,1.00917,0.0477382,775.31,1065350016,1068.59,705.233,1.00808,0.29011,541.48,708367552,734.16,517.21,1.00337,0.0214905,2670.14,2872.87,2688.8,1.00028
1.87,931120,9.28,1.43706,1.02009,0.0117112,788.78,1219590016,1068.59,716.771,1.00833,0.261818,544.84,708367552,734.16,520.839,1.00342,0.0367294,2663.42,2872.87,2688.82,0.999866
2.23,2105780,9.28,1.51731,1.03413,0.101931,838.71,1028899968,1068.59,732.272,1.0117,0.378394,573.85,708367552,734.16,527.274,1.00654,0.0890411,2712.97,2872.87,2694.58,1.00082
2.47,1553568,9.28,1.63129,1.03999,0.453173,820.58,841440000,1068.59,744.207,1.00887,0.249756,561.37,708367552,734.16,531.231,1.00447,0.0480355,2734.62,2872.87,2700.05,1.00112
2.24,1853487,9.28,1.73494,1.02584,0.326446,785.91,1113660032,1068.59,753.817,1.00495,0.243717,547.51,708367552,734.16,534.963,1.00234,0.0252488,2779.66,2872.87,2710.8,1.00192
2.77,3033040,9.28,1.86101,1.04161,0.700682,820.72,998849984,1068.59,764.321,1.00708,0.230944,561.54,708367552,734.16,538.557,1.00358,0.0650957,2718.37,2872.87,2714.42,1.00017
4.05,7975117,9.28,2.09412,1.07751,1.82229,829.33,819809984,1068.59,774.792,1.00688,0.257011,564.08,708367552,734.16,542.128,1.00347,0.0607882,2801.31,2872.87,2722.82,1.002
3.18,2289593,9.28,2.28303,1.03827,1.03987,837.45,858929984,1068.59,783.916,1.00674,0.187756,566.22,708367552,734.16,545.044,1.0034,0.00719757,2818.82,2872.87,2734.03,1.00221
3.19,1726829,9.28,2.44323,1.03264,1.09247,824.03,864689984,1068.59,791.894,1.00501,0.0256365,554.18,708367552,734.16,547.165,1.00183,-0.0480707,2833.28,2872.87,2747.57,1.00235
3.49,2338603,9.28,2.60158,1.03556,1.2709,821.9,659820032,1068.59,796.922,1.00455,0.0330519,548.4,708367552,734.16,547.646,1.00133,-0.0439661,2874.69,2872.87,2763.92,1.00324
3.21,1040443,9.28,2.7411,1.02347,1.31598,790.53,695760000,1068.59,801.707,1.00154,0.105922,534.93,708367552,734.16,548.264,0.999798,-0.00686764,2871.68,2901.52,2782.99,1.00304
3.32,1377873,9.28,2.88771,1.02151,1.32569,823.86,907649984,1068.59,806.839,1.0035,0.105108,556.34,708367552,734.16,549.844,1.00197,0.0339962,2929.67,2904.98,2804.28,1.00403
3.32,3544968,9.28,2.99753,1.01766,1.32822,861.16,870569984,1068.59,815.039,1.00565,0.217789,571.36,708367552,734.16,552.898,1.00325,0.102232,2885.57,2929.67,2821.66,1.00268
2.99,1826563,9.02,3.05355,1.00744,0.941175,779.47,861889984,1068.59,814.729,0.998366,0.0636733,530.02,708367552,734.16,551.432,0.997978,0.00505634,2767.78,2929.67,2821.04,0.999891
2.36,1529603,9.02,3.01418,0.992171,0.805424,710.3,1416540032,1068.59,802.879,0.992586,-0.0105004,500.99,708367552,734.16,544.763,0.99442,-0.0391251,2723.06,2929.67,2809.69,0.998714
2.25,1258546,9.02,2.94091,0.988264,0.499118,697.21,1425709952,1068.59,790.428,0.991455,-0.206657,495.03,708367552,734.16,538.601,0.993725,-0.11055,2736.27,2929.67,2806.26,0.998829
2.16,1011764,9.02,2.85372,0.985107,0.303208,671.94,1072040000,1068.59,772.969,0.989751,-0.229567,486.42,708367552,734.16,529.987,0.993075,-0.14355,2760.17,2929.67,2794.33,0.999353
1.78,909021,8.52,2.73116,0.975542,0.0565316,622.05,1273750016,1068.59,753.305,0.986084,-0.351336,455.93,708367552,734.16,520.109,0.989847,-0.16383,2599.95,2929.67,2771.97,0.995636
1.69,510140,8.26,2.57892,0.972903,-0.0158553,574.46,955840000,1068.59,726.547,0.982783,-0.285431,422.16,708367552,734.16,505.416,0.986388,-0.156972,2485.74,2929.67,2729.61,0.993225
1.98,474553,8.26,2.47458,0.98007,0.065896,642.9,1321200000,1068.59,709.511,0.989748,-0.199506,458.28,708367552,734.16,496.028,0.991835,-0.0969949,2596.26,2929.67,2704.09,0.99616
1.86,331438,7.82,2.36258,0.976672,-0.118716,648.53,869529984,1068.59,697.456,0.990964,-0.228278,464.69,708367552,734.16,489.695,0.993313,-0.152751,2664.76,2929.67,2693.43,0.997989
1.84,200789,7.82,2.25903,0.976827,-0.297322,623.36,1173709952,1068.59,684.821,0.989511,-0.301273,463.84,708367552,734.16,484.587,0.993907,-0.144353,2707.88,2929.67,2688.4,0.999102
2.07,475968,7.82,2.1952,0.986023,-0.130058,654.05,911009984,1068.59,676.187,0.993361,-0.303447,483.41,708367552,734.16,481.907,0.997212,-0.136974,2792.67,2929.67,2693.86,1.00123
2.02,372628,7.82,2.13138,0.986444,-0.105543,608.77,1139459968,1068.59,665.22,0.990061,-0.322297,469.77,708367552,734.16,479.171,0.996041,-0.120476,2743.07,2929.67,2698.19,1.00009
1.98,752394,7.82,2.07824,0.98717,-0.211592,640.2,1055910016,1068.59,657.106,0.994144,-0.29592,484.86,708367552,734.16,477.777,0.998656,-0.0901294,2800.71,2929.67,2707.97,1.00156
1.84,543794,7.82,2.01903,0.985535,-0.266633,663.92,1030670016,1068.59,652.73,0.997586,-0.260061,500.45,708367552,734.16,478.191,1.00131,-0.0717907,2892.74,2929.67,2724.98,1.00385
1.88,335025,7.82,1.97458,0.989802,-0.262614,682.88,839619968,1068.59,653.25,1.00028,-0.241468,496.88,708367552,734.16,479.402,1.00119,-0.0984666,2905.03,2929.67,2747.54,1.00409
1.88,351113,7.58,1.94447,0.992775,-0.186905,648.6,1201810048,1068.59,651.903,0.997897,-0.39259,474.5,708367552,734.16,479.088,0.998756,-0.190343,2945.64,2939.88,2774.86,1.005
1.73,550679,7.58,1.90908,0.990715,-0.243309,640.65,956390016,1068.59,649.622,0.998357,-0.328626,468.23,708367552,734.16,477.871,0.998652,-0.14973,2859.53,2945.64,2792.3,1.00283
1.5,420780,7.58,1.8517,0.985104,-0.175374,576.03,935929984,1068.59,641.773,0.99272,-0.32914,432.1,708367552,734.16,473.57,0.994214,-0.148158,2752.06,2945.64,2798.23,1.00014
1.4,637514,7.58,1.79751,0.982902,-0.212634,582.07,1088770048,1068.59,634.373,0.994121,-0.290877,447.48,708367552,734.16,470.601,0.996832,-0.151133,2886.98,2945.64,2815.23,1.00315
1.39,645510,7.53,1.74017,0.983865,-0.29408,630.01,1187110016,1047.84,632.936,0.999467,-0.153506,471.28,771535104,730.37,470.839,1.0003,-0.0969148,2941.76,2950.46,2839.21,1.00402
1.465,1064741,6.78,1.69006,0.987932,-0.189216,629.67,1025400000,1037.82,631.715,0.99969,-0.120743,476.89,650408896,727.81,471.271,1.00116,-0.113193,3013.77,2990.41,2868.18,1.00521
1.38,331047,6.78,1.64396,0.984919,-0.229179,600.74,1087640064,1037.82,627.998,0.996541,-0.14692,461.46,709915456,715.72,470.34,0.998725,-0.124195,3025.86,3013.77,2893.29,1.0047
1.43,592738,6.78,1.60437,0.987537,-0.144616,557.29,1764649984,1037.82,619.339,0.99205,-0.333545,435.96,1070551168,715.72,466.312,0.995016,-0.172879,2918.65,3025.86,2904.21,1.00159
1.35,439365,6.78,1.56456,0.985312,-0.0810799,523.29,1079309952,1037.82,606.712,0.989068,-0.35131,410.68,730344896,715.72,459.127,0.991779,-0.184658,2847.11,3025.86,2905.01,0.999595
1.4,484883,6.29,1.52333,0.988508,-0.136702,559.51,975459968,985.14,597.721,0.993595,-0.248769,433.24,577297664,684.82,454.063,0.995373,-0.165987,2978.71,3025.86,2915.01,1.00222
1.43,1088757,5.93,1.49385,0.991132,-0.223253,597.85,2260610048,958.49,594.743,0.998195,-0.204139,452.25,1120975232,671.95,452.221,0.998374,-0.13586,2992.07,3025.86,2928.96,1.00213
1.31,716527,5.08,1.45708,0.987574,-0.273163,561.09,798179968,903.48,589.621,0.994639,-0.211392,423.76,731750016,645.6,448.387,0.994667,-0.174112,2952.01,3025.86,2935.69,1.00098
1.25,395637,4.77,1.41989,0.986736,-0.247115,562.37,751320000,903.48,584.522,0.995144,-0.233473,420.67,753870016,645.6,443.976,0.994663,-0.198618,2986.2,3025.86,2943.61,1.00147
1.17,685555,4.64,1.37858,0.984844,-0.267748,599.93,865120000,903.48,583.948,0.999749,-0.167252,437.36,843580032,645.6,441.847,0.99761,-0.186276,3066.91,3025.86,2958.59,1.00296
1.18,443728,4.64,1.34495,0.986988,-0.253886,601.99,1045139968,903.48,585.006,1.0005,-0.201462,440.43,713080000,645.6,440.88,0.998619,-0.187767,3120.46,3093.08,2980.02,1.00384
1.13,673173,4.64,1.30832,0.986565,-0.29667,582.27,666040000,867.41,584.27,0.998923,-0.162097,431.37,590910016,604.75,439.284,0.997818,-0.157211,3140.98,3120.46,3002.2,1.00398
1.27,779503,4.64,1.29009,0.995445,-0.2004,598.69,765550016,867.41,585.137,1.00117,-0.0889953,441.35,769120000,604.75,438.687,0.999655,-0.165562,3168.8,3145.91,3026.69,1.00421
1.43,543564,4.64,1.30232,1.00427,-0.137686,628.46,495270016,867.41,590.2,1.00451,0.0286862,454.96,420100000,604.75,440.096,1.00178,-0.124403,3240.02,3221.22,3057.89,1.00519
1.41,924820,4.64,1.31391,1.00352,-0.0795821,632.55,932329984,867.41,595.651,1.00457,0.0542169,453.87,909459968,604.75,441.722,1.00146,-0.116781,3265.35,3240.02,3087.87,1.00507
1.27,498343,4.64,1.31282,0.996661,-0.0216494,589.26,763580032,867.41,597.431,0.999661,-0.153576,429.71,734200000,604.75,441.144,0.998008,-0.208444,3295.47,3329.62,3122.69,1.00512
1.28,391618,4.64,1.30598,0.997446,-0.00319952,552.17,814070016,867.41,592.499,0.996026,-0.186514,408.55,839180032,604.75,436.763,0.995387,-0.247472,3327.71,3329.62,3150.04,1.00533
1.22,377602,4.64,1.29159,0.995162,-0.0392699,554.68,719310016,867.41,588.468,0.996755,-0.209046,405.93,670529984,604.75,433.038,0.995563,-0.22341,3337.75,3380.16,3185.28,1.00499
0.97,642403,4.64,1.256,0.983348,-0.0531467,407.64,1745799936,867.41,569.668,0.980963,-0.269959,318.64,1619769984,604.75,419.98,0.983095,-0.287513,2972.37,3380.16,3167.21,0.997332
0.378,1068608,4.64,1.14783,0.953207,-0.178369,239.86,2269560064,867.41,529.982,0.96187,-0.246829,193.93,2519310080,604.75,393.387,0.964136,-0.337348,2304.92,3380.16,3090.5,0.983682
0.403,1741616,4.64,1.0437,0.953742,-0.197568,271.6,1985730048,867.41,493.132,0.965271,-0.254337,229.26,2343450112,604.75,369.296,0.969933,-0.306304,2488.65,3380.16,3018.24,0.987754
0.4375,595176,4.64,0.955632,0.955754,-0.2133,310.43,1455430016,867.41,464.591,0.970696,-0.363756,260.17,1785549952,604.75,351.636,0.976099,-0.385447,2874.56,3380.16,2990.31,0.996335
0.57,1071199,4.24,0.882849,0.965369,-0.188529,349.92,1222109952,861.16,441.759,0.977207,-0.211151,272.28,1770749952,597.81,336.682,0.979525,-0.316376,2830.71,3380.16,2963.82,0.99553
0.5,466512,4.12,0.818312,0.961238,-0.232431,355.66,1009040000,861.16,425.157,0.979101,-0.143822,272.31,1336999936,583.44,324.996,0.980619,-0.311653,2863.7,3380.16,2946.33,0.996338
0.531,564215,4.08,0.761561,0.964604,-0.185745,383.71,934800000,861.16,412.332,0.984778,-0.243923,291.59,1306320000,573.85,315.427,0.985818,-0.325926,3044.31,3380.16,2942.92,1.00042
0.6,1379260,4.05,0.720735,0.971904,-0.158596,401.57,1123219968,861.16,406.572,0.989251,-0.256074,299.28,1833100032,573.85,310.609,0.988881,-0.295117,3041.31,3380.16,2954.71,1.00029
0.56,577931,4.05,0.677022,0.970054,-0.13336,366.21,879360000,861.16,396.645,0.985458,-0.24952,277.3,1229929984,573.85,302.932,0.985997,-0.315162,3009.05,3380.16,2958.38,0.999657
0.6,1074009,4.05,0.644141,0.97602,-0.121873,355.81,810419968,861.16,386.407,0.985722,-0.343582,270.32,1121350016,573.85,295.269,0.986341,-0.392641,3185.04,3380.16,2976.1,1.00359
0.5925,1178441,4.05,0.615611,0.979315,-0.188169,378.65,786430016,861.16,378.989,0.992022,-0.300678,284.11,1250930048,573.85,289.604,0.991588,-0.368,3215.63,3380.16,3001.87,1.00421
0.6,813367,4.05,0.59468,0.985345,-0.168429,375.71,813190016,861.16,373.534,0.994333,-0.349867,280.59,1113129984,573.85,284.824,0.993321,-0.408099,3351.28,3380.16,3039.4,1.00706
0.5666,956193,4.05,0.579208,0.987165,-0.164132,359.61,569790016,861.16,370.59,0.994343,-0.285322,269.45,893169984,573.85,281.781,0.993256,-0.403807,3397.16,3380.16,3085.92,1.00784
0.495,636591,4.05,0.563171,0.984148,-0.242472,347.42,722579968,861.16,367.621,0.994561,-0.276613,260.32,1125330048,573.85,278.536,0.993325,-0.392645,3426.96,3508.01,3141.94,1.00805
0.4173,1059085,4.05,0.542101,0.980496,-0.26293,335.57,884860032,861.16,362.333,0.994978,-0.242427,250.65,1363120000,573.85,274.084,0.993406,-0.377052,3319.47,3508.01,3179.3,1.0057
0.395,896995,4.05,0.52291,0.983058,-0.319896,296.4,880489984,861.16,355.494,0.990122,-0.219769,222.55,1330669952,573.85,268.155,0.988746,-0.428085,3348.44,3508.01,3215.2,1.00601
0.4539,943630,4.05,0.516646,0.992369,-0.0788695,306.94,589360000,861.16,350.587,0.992388,-0.0520427,228.78,1058819968,573.85,263.601,0.990876,-0.331763,3483.81,3508.01,3267.37,1.00786
0.3854,890243,4.05,0.501689,0.983108,-0.0884074,283.75,794460032,861.16,343.369,0.987256,-0.117772,216.82,1394089984,573.85,257.874,0.987363,-0.368211,3269.96,3508.01,3296.27,1.00218
0.43,2026626,4.05,0.49032,0.988695,-0.131951,346.07,861049984,861.16,338.717,0.998869,0.0318366,254.55,1581479936,573.85,253.963,0.997051,-0.268801,3585.15,3509.44,3341.45,1.00731
0.53,2071777,4.05,0.487917,1.00171,-0.224582,403.95,549969984,861.16,342.877,1.00936,0.0372763,289.99,1032150016,573.85,255.584,1.00607,-0.22027,3638.35,3585.15,3387.02,1.00732
0.93,5758187,4.05,0.528071,1.05248,0.666613,424.44,708449984,861.16,351.499,1.0124,0.0244169,306.38,1333609984,573.85,260.466,1.00986,-0.15416,3663.46,3699.12,3436.66,1.00669
1.01,1249538,4.05,0.581487,1.054,0.856647,401.14,362940000,861.16,357.059,1.00739,0.000388294,287.38,689120000,573.85,263.328,1.00471,-0.230825,3703.06,3709.41,3482.81,1.00637
1.14,2525712,4.05,0.64355,1.06002,0.791974,444.95,907420032,861.16,365.348,1.01533,0.0976989,312.78,1385229952,573.85,267.483,1.01131,-0.212468,3824.68,3756.07,3534.15,1.00778
1.1115,2505289,4.05,0.712871,1.04716,0.764429,446.92,449129984,861.16,376.856,1.01462,0.125477,317.54,924000000,573.85,274.289,1.01185,-0.131525,3841.47,3824.68,3581.33,1.0071
1.27,3050789,4.05,0.77938,1.05439,0.839552,454.41,464910016,861.16,385.878,1.01487,0.190146,321.1,1015619968,573.85,279.387,1.01205,-0.032488,3886.83,3841.47,3621.69,1.00698
1.38,1859799,4.05,0.870627,1.05335,1.00713,500.57,410070016,861.16,401.318,1.02079,0.224422,345.23,762270016,573.85,288.154,1.01641,0.000215158,3906.71,3934.83,3671.75,1.0064
1.52,2606540,4.05,0.967113,1.05402,0.983627,582.24,621459968,861.16,423.724,1.03123,0.537423,396.54,1371990016,573.85,301.284,1.02603,0.266827,3841.94,3934.83,3703.99,1.00448
1.68,2592656,4.05,1.07995,1.05426,1.46287,540.2,598710016,861.16,445.491,1.02121,0.423581,370.11,1277709952,573.85,314.397,1.01762,0.221702,3913.1,3943.34,3744.86,1.00506
1.61,674982,4.05,1.17751,1.04094,1.64605,558.12,373240000,861.16,464.923,1.02114,0.488577,379.71,716380032,573.85,325.95,1.01752,0.285614,4019.87,3974.54,3790.17,1.00627
1.53,1098539,4.05,1.24894,1.03015,2.0923,528.23,390980000,861.16,478.917,1.01438,0.398282,365.19,829900032,573.85,334.474,1.01259,0.196087,4185.47,4128.8,3850.88,1.0082
1.59,728252,4.05,1.31871,1.02775,2.18341,545.94,416960000,861.16,491.676,1.01458,0.659437,371.6,931270016,573.85,342.018,1.01198,0.421045,4181.17,4185.47,3907.31,1.00704
1.57,1426169,4.05,1.37922,1.0218,1.52674,593.06,493220000,861.16,510.398,1.01787,0.760391,401.29,1101549952,573.85,353.152,1.01516,0.555973,4173.85,4232.6,3959.54,1.00595
1.7,1158859,4.05,1.45227,1.02288,2.34697,585.67,558209984,861.16,525.072,1.01407,0.787293,389.82,1000030016,573.85,361.142,1.01069,0.512221,4204.11,4232.6,4002.7,1.00563
1.88,1226933,4.05,1.53168,1.02554,2.56341,625.93,465420000,861.16,543.208,1.01588,0.587276,413.47,844689984,573.85,370.818,1.01242,0.439586,4247.44,4232.6,4046.38,1.00537
2.16,3537206,4.05,1.61302,1.03211,2.50991,632.41,431880000,861.16,556.394,1.01429,0.336935,418.03,859089984,573.85,377.869,1.01133,0.264983,4280.7,4247.44,4082.4,1.00518
1.87,1227745,4.05,1.67337,1.01534,0.59378,601.42,355329984,861.16,568.356,1.00871,0.136134,399.42,699204736,573.85,384.056,1.0066,0.110937,4369.55,4352.34,4130.67,1.00584
1.7,994339,4.05,1.69124,1.00639,0.329925,542.84,468209984,861.16,569.699,1.00078,0.0614426,367.17,1000337664,573.85,384.465,1.0002,0.0862533,4411.8,4369.55,4174.27,1.00575
1.65,588332,4.05,1.70371,1.00264,0.201049,554.55,481240000,861.16,570.905,1.00102,-0.0687919,374.19,882087808,573.85,384.918,1.00045,0.0363645,4436.52,4411.8,4218.11,1.00538
1.63,1215829,4.05,1.70568,1.00068,0.323732,510.72,434860000,861.16,568.353,0.995293,-0.137845,343.95,885270016,573.85,382.745,0.994761,-0.0730716,4441.67,4468.0,4261.47,1.00473
1.86,687612,4.05,1.73056,1.0077,0.248705,552.5,463280000,861.16,568.244,0.999236,-0.0725976,363.88,839729984,573.85,381.359,0.997533,-0.0336417,4535.43,4509.37,4307.74,1.0054
1.94,1110800,4.05,1.75677,1.0093,0.270032,568.53,577809984,861.16,567.193,1.00046,-0.0953026,369.23,1179379968,573.85,379.168,0.998057,-0.0651929,4432.99,4535.43,4338.51,1.00324
2.28,2776185,4.05,1.81512,1.02001,0.390853,645.79,794049984,861.16,574.552,1.00866,-0.117294,408.94,1223760000,573.85,381.213,1.00452,-0.102805,4357.05,4535.43,4359.4,1.00151
2.61,5796795,4.05,1.95918,1.02728,0.2654,695.87,467630016,861.16,590.21,1.01338,0.0841081,434.44,923900032,573.85,387.498,1.00852,0.0311463,4471.37,4535.43,4378.96,1.00272
2.67,1767421,4.05,2.06415,1.0257,0.428829,686.24,424430016,861.16,604.824,1.01088,0.0385241,436.19,850320000,573.85,394.084,1.00798,0.00309113,4605.38,4544.9,4412.48,1.00412
3.17,4845959,4.05,2.1977,1.03726,0.768656,688.41,384150016,861.16,618.102,1.0098,0.139548,434.6,720120000,573.85,400.189,1.00687,0.0712305,4682.85,4697.53,4455.88,1.00465
2.79,2443710,4.05,2.29492,1.02148,0.547167,659.25,381209984,861.16,624.53,1.00563,0.0903482,418.74,720019968,573.85,402.75,1.0036,0.027973,4594.62,4697.96,4489.14,1.00285
3.1,2268418,4.05,2.39303,1.02721,0.838364,673.81,418230016,861.16,631.304,1.0065,-0.0341714,430.61,786200000,573.85,405.955,1.00516,-0.0558741,4712.02,4697.96,4516.14,1.00417
2.87,2043664,4.05,2.46875,1.01788,0.563011,659.01,327329984,861.16,635.736,1.00445,-0.0348618,418.37,601980032,573.85,407.754,1.00293,-0.0508468,4725.78,4712.02,4545.35,1.00386
3.18,3585985,4.05,2.57703,1.02319,0.508578,740.42,524080000,861.16,646.886,1.01225,0.0944453,467.58,1073810048,573.85,413.457,1.01049,0.0297295,4677.02,4766.18,4576.41,1.00265
2.98,2857541,4.05,2.67742,1.01502,0.212634,738.02,435390016,861.16,664.482,1.01065,0.11605,476.81,889699968,573.85,423.761,1.01087,0.113226,4397.93,4766.18,4578.73,0.998273
3.37,2567022,4.05,2.77488,1.02244,0.43677,821.16,511529984,861.16,686.037,1.0175,0.345933,525.45,1125289984,573.85,437.11,1.01717,0.285555,4500.54,4766.18,4571.02,0.999623
3.15,2373519,4.05,2.87477,1.01398,0.356497,812.33,531460000,861.16,709.028,1.01447,0.53029,514.82,990190016,573.85,450.877,1.01363,0.416394,4348.87,4766.18,4551.74,0.997373
4.01,5749767,4.05,3.03194,1.0298,0.84765,877.66,735539968,861.16,732.023,1.01833,0.583063,569.81,1665910016,573.85,466.033,1.01964,0.547047,4328.87,4766.18,4529.08,0.997112
3.45,3324246,4.05,3.13852,1.01356,0.420841,866.04,707400000,877.66,754.476,1.01488,0.693238,559.78,1632099968,580.55,482.738,1.01569,0.622681,4463.09,4766.18,4504.49,0.999188
3.71,3167732,4.05,3.24847,1.01582,0.323782,923.14,473760000,942.61,782.877,1.0171,0.657108,586.89,970540032,601.34,500.656,1.01674,0.610567,4545.86,4766.18,4507.51,1.00035
4.47,3432357,4.06,3.40854,1.02739,0.650737,940.0,355820000,942.89,809.103,1.01581,0.607876,607.63,694819968,605.71,518.202,1.01681,0.654781,4392.59,4766.18,4496.91,0.998132
4.37,4198004,4.59,3.57523,1.021,0.522374,900.42,513350016,942.89,826.791,1.01052,0.357316,572.41,1127609984,607.63,529.835,1.01023,0.451409,4131.93,4766.18,4456.04,0.994477
4.34,4822193,4.59,3.75383,1.01662,0.252471,973.54,499649984,1012.74,865.421,1.01347,0.490339,618.93,1017340032,612.25,545.044,1.01419,0.524738,3901.36,4766.18,4362.96,0.991455
5.07,4302844,4.7,3.93527,1.0262,0.287163,1093.36,537889984,1066.39,900.173,1.02022,0.647092,676.93,989030016,669.03,565.978,1.01886,0.649006,4108.54,4766.18,4321.43,0.99496
3.79,7694818,5.07,4.01338,1.00243,0.0120532,879.62,860190016,1093.36,919.243,1.00256,0.553048,555.65,1643440000,676.93,577.176,1.00285,0.445522,3674.84,4766.18,4240.49,0.989056
3.48,6353285,5.07,4.00088,0.996887,-0.0462945,852.81,705129984,1093.36,919.357,1.00012,0.415573,547.02,1236310016,676.93,578,1.00143,0.545788,3911.74,4766.18,4211.05,0.993058